# timestampNs,accelX,accelY,accelZ,gyroX,gyroY,gyroZ,magX,magY,magZ,orientationW,orientationX,orientationY,orientationZ
0,0,0,9.8100,0,0.5,0,0,0,0,1.000000,0,0.000000,0
33000000,0,0,9.8100,0,0.5,0,0,0,0,0.999914,0,0.013090,0
66000000,0,0,9.8100,0,0.5,0,0,0,0,0.999657,0,0.026177,0
99000000,0,0,9.8100,0,0.5,0,0,0,0,0.999229,0,0.039260,0
132000000,0,0,9.8100,0,0.5,0,0,0,0,0.998630,0,0.052336,0
165000000,0,0,9.8100,0,0.5,0,0,0,0,0.997859,0,0.065403,0
198000000,0,0,9.8100,0,0.5,0,0,0,0,0.996917,0,0.078459,0
231000000,0,0,9.8100,0,0.5,0,0,0,0,0.995805,0,0.091502,0
264000000,0,0,9.8100,0,0.5,0,0,0,0,0.994522,0,0.104528,0
297000000,0,0,9.8100,0,0.5,0,0,0,0,0.993068,0,0.117537,0
330000000,0,0,9.8100,0,0.5,0,0,0,0,0.991445,0,0.130526,0
363000000,0,0,9.8100,0,0.5,0,0,0,0,0.989651,0,0.143493,0
396000000,0,0,9.8100,0,0.5,0,0,0,0,0.987688,0,0.156434,0
429000000,0,0,9.8100,0,0.5,0,0,0,0,0.985556,0,0.169350,0
462000000,0,0,9.8100,0,0.5,0,0,0,0,0.983255,0,0.182236,0
495000000,0,0,9.8100,0,0.5,0,0,0,0,0.980785,0,0.195090,0
528000000,0,0,9.8100,0,0.5,0,0,0,0,0.978148,0,0.207912,0
561000000,0,0,9.8100,0,0.5,0,0,0,0,0.975342,0,0.220697,0
594000000,0,0,9.8100,0,0.5,0,0,0,0,0.972370,0,0.233445,0
627000000,0,0,9.8100,0,0.5,0,0,0,0,0.969231,0,0.246153,0
660000000,0,0,9.8100,0,0.5,0,0,0,0,0.965926,0,0.258819,0
693000000,0,0,9.8100,0,0.5,0,0,0,0,0.962455,0,0.271440,0
726000000,0,0,9.8100,0,0.5,0,0,0,0,0.958820,0,0.284015,0
759000000,0,0,9.8100,0,0.5,0,0,0,0,0.955020,0,0.296542,0
792000000,0,0,9.8100,0,0.5,0,0,0,0,0.951057,0,0.309017,0
825000000,0,0,9.8100,0,0.5,0,0,0,0,0.946930,0,0.321439,0
858000000,0,0,9.8100,0,0.5,0,0,0,0,0.942641,0,0.333807,0
891000000,0,0,9.8100,0,0.5,0,0,0,0,0.938191,0,0.346117,0
924000000,0,0,9.8100,0,0.5,0,0,0,0,0.933580,0,0.358368,0
957000000,0,0,9.8100,0,0.5,0,0,0,0,0.928810,0,0.370557,0
990000000,0,0,9.8100,0,0.5,0,0,0,0,0.923880,0,0.382683,0
1023000000,0,0,9.8100,0,0.5,0,0,0,0,0.918791,0,0.394744,0
1056000000,0,0,9.8100,0,0.5,0,0,0,0,0.913545,0,0.406737,0
1089000000,0,0,9.8100,0,0.5,0,0,0,0,0.908143,0,0.418660,0
1122000000,0,0,9.8100,0,0.5,0,0,0,0,0.902585,0,0.430511,0
1155000000,0,0,9.8100,0,0.5,0,0,0,0,0.896873,0,0.442289,0
1188000000,0,0,9.8100,0,0.5,0,0,0,0,0.891007,0,0.453990,0
1221000000,0,0,9.8100,0,0.5,0,0,0,0,0.884988,0,0.465615,0
1254000000,0,0,9.8100,0,0.5,0,0,0,0,0.878817,0,0.477159,0
1287000000,0,0,9.8100,0,0.5,0,0,0,0,0.872496,0,0.488621,0
1320000000,0,0,9.8100,0,0.5,0,0,0,0,0.866025,0,0.500000,0
1353000000,0,0,9.8100,0,0.5,0,0,0,0,0.859406,0,0.511293,0
1386000000,0,0,9.8100,0,0.5,0,0,0,0,0.852640,0,0.522499,0
1419000000,0,0,9.8100,0,0.5,0,0,0,0,0.845728,0,0.533615,0
1452000000,0,0,9.8100,0,0.5,0,0,0,0,0.838671,0,0.544639,0
1485000000,0,0,9.8100,0,0.5,0,0,0,0,0.831470,0,0.555570,0
1518000000,0,0,9.8100,0,0.5,0,0,0,0,0.824126,0,0.566406,0
1551000000,0,0,9.8100,0,0.5,0,0,0,0,0.816642,0,0.577145,0
1584000000,0,0,9.8100,0,0.5,0,0,0,0,0.809017,0,0.587785,0
1617000000,0,0,9.8100,0,0.5,0,0,0,0,0.801254,0,0.598325,0
1650000000,0,0,9.8100,0,0.5,0,0,0,0,0.793353,0,0.608761,0
1683000000,0,0,9.8100,0,0.5,0,0,0,0,0.785317,0,0.619094,0
1716000000,0,0,9.8100,0,0.5,0,0,0,0,0.777146,0,0.629320,0
1749000000,0,0,9.8100,0,0.5,0,0,0,0,0.768842,0,0.639439,0
1782000000,0,0,9.8100,0,0.5,0,0,0,0,0.760406,0,0.649448,0
1815000000,0,0,9.8100,0,0.5,0,0,0,0,0.751840,0,0.659346,0
1848000000,0,0,9.8100,0,0.5,0,0,0,0,0.743145,0,0.669131,0
1881000000,0,0,9.8100,0,0.5,0,0,0,0,0.734323,0,0.678801,0
1914000000,0,0,9.8100,0,0.5,0,0,0,0,0.725374,0,0.688355,0
1947000000,0,0,9.8100,0,0.5,0,0,0,0,0.716302,0,0.697790,0
1980000000,0,0,9.8100,0,0.5,0,0,0,0,0.707107,0,0.707107,0
2013000000,0,0,9.8100,0,0.5,0,0,0,0,0.697790,0,0.716302,0
2046000000,0,0,9.8100,0,0.5,0,0,0,0,0.688355,0,0.725374,0
2079000000,0,0,9.8100,0,0.5,0,0,0,0,0.678801,0,0.734323,0
2112000000,0,0,9.8100,0,0.5,0,0,0,0,0.669131,0,0.743145,0
2145000000,0,0,9.8100,0,0.5,0,0,0,0,0.659346,0,0.751840,0
2178000000,0,0,9.8100,0,0.5,0,0,0,0,0.649448,0,0.760406,0
2211000000,0,0,9.8100,0,0.5,0,0,0,0,0.639439,0,0.768842,0
2244000000,0,0,9.8100,0,0.5,0,0,0,0,0.629320,0,0.777146,0
2277000000,0,0,9.8100,0,0.5,0,0,0,0,0.619094,0,0.785317,0
2310000000,0,0,9.8100,0,0.5,0,0,0,0,0.608761,0,0.793353,0
2343000000,0,0,9.8100,0,0.5,0,0,0,0,0.598325,0,0.801254,0
2376000000,0,0,9.8100,0,0.5,0,0,0,0,0.587785,0,0.809017,0
2409000000,0,0,9.8100,0,0.5,0,0,0,0,0.577145,0,0.816642,0
2442000000,0,0,9.8100,0,0.5,0,0,0,0,0.566406,0,0.824126,0
2475000000,0,0,9.8100,0,0.5,0,0,0,0,0.555570,0,0.831470,0
2508000000,0,0,9.8100,0,0.5,0,0,0,0,0.544639,0,0.838671,0
2541000000,0,0,9.8100,0,0.5,0,0,0,0,0.533615,0,0.845728,0
2574000000,0,0,9.8100,0,0.5,0,0,0,0,0.522499,0,0.852640,0
2607000000,0,0,9.8100,0,0.5,0,0,0,0,0.511293,0,0.859406,0
2640000000,0,0,9.8100,0,0.5,0,0,0,0,0.500000,0,0.866025,0
2673000000,0,0,9.8100,0,0.5,0,0,0,0,0.488621,0,0.872496,0
2706000000,0,0,9.8100,0,0.5,0,0,0,0,0.477159,0,0.878817,0
2739000000,0,0,9.8100,0,0.5,0,0,0,0,0.465615,0,0.884988,0
2772000000,0,0,9.8100,0,0.5,0,0,0,0,0.453990,0,0.891007,0
2805000000,0,0,9.8100,0,0.5,0,0,0,0,0.442289,0,0.896873,0
2838000000,0,0,9.8100,0,0.5,0,0,0,0,0.430511,0,0.902585,0
2871000000,0,0,9.8100,0,0.5,0,0,0,0,0.418660,0,0.908143,0
2904000000,0,0,9.8100,0,0.5,0,0,0,0,0.406737,0,0.913545,0
2937000000,0,0,9.8100,0,0.5,0,0,0,0,0.394744,0,0.918791,0
2970000000,0,0,9.8100,0,0.5,0,0,0,0,0.382683,0,0.923880,0
3003000000,0,0,9.8100,0,0.5,0,0,0,0,0.370557,0,0.928810,0
3036000000,0,0,9.8100,0,0.5,0,0,0,0,0.358368,0,0.933580,0
3069000000,0,0,9.8100,0,0.5,0,0,0,0,0.346117,0,0.938191,0
3102000000,0,0,9.8100,0,0.5,0,0,0,0,0.333807,0,0.942641,0
3135000000,0,0,9.8100,0,0.5,0,0,0,0,0.321439,0,0.946930,0
3168000000,0,0,9.8100,0,0.5,0,0,0,0,0.309017,0,0.951057,0
3201000000,0,0,9.8100,0,0.5,0,0,0,0,0.296542,0,0.955020,0
3234000000,0,0,9.8100,0,0.5,0,0,0,0,0.284015,0,0.958820,0
3267000000,0,0,9.8100,0,0.5,0,0,0,0,0.271440,0,0.962455,0
3300000000,0,0,9.8100,0,0.5,0,0,0,0,0.258819,0,0.965926,0
3333000000,0,0,9.8100,0,0.5,0,0,0,0,0.246153,0,0.969231,0
3366000000,0,0,9.8100,0,0.5,0,0,0,0,0.233445,0,0.972370,0
3399000000,0,0,9.8100,0,0.5,0,0,0,0,0.220697,0,0.975342,0
3432000000,0,0,9.8100,0,0.5,0,0,0,0,0.207912,0,0.978148,0
3465000000,0,0,9.8100,0,0.5,0,0,0,0,0.195090,0,0.980785,0
3498000000,0,0,9.8100,0,0.5,0,0,0,0,0.182236,0,0.983255,0
3531000000,0,0,9.8100,0,0.5,0,0,0,0,0.169350,0,0.985556,0
3564000000,0,0,9.8100,0,0.5,0,0,0,0,0.156434,0,0.987688,0
3597000000,0,0,9.8100,0,0.5,0,0,0,0,0.143493,0,0.989651,0
3630000000,0,0,9.8100,0,0.5,0,0,0,0,0.130526,0,0.991445,0
3663000000,0,0,9.8100,0,0.5,0,0,0,0,0.117537,0,0.993068,0
3696000000,0,0,9.8100,0,0.5,0,0,0,0,0.104528,0,0.994522,0
3729000000,0,0,9.8100,0,0.5,0,0,0,0,0.091502,0,0.995805,0
3762000000,0,0,9.8100,0,0.5,0,0,0,0,0.078459,0,0.996917,0
3795000000,0,0,9.8100,0,0.5,0,0,0,0,0.065403,0,0.997859,0
3828000000,0,0,9.8100,0,0.5,0,0,0,0,0.052336,0,0.998630,0
3861000000,0,0,9.8100,0,0.5,0,0,0,0,0.039260,0,0.999229,0
3894000000,0,0,9.8100,0,0.5,0,0,0,0,0.026177,0,0.999657,0
3927000000,0,0,9.8100,0,0.5,0,0,0,0,0.013090,0,0.999914,0
3960000000,0,0,9.8100,0,0.5,0,0,0,0,0.000000,0,1.000000,0
3993000000,0,0,9.8100,0,0.5,0,0,0,0,-0.013090,0,0.999914,0
4026000000,0,0,9.8100,0,0.5,0,0,0,0,-0.026177,0,0.999657,0
4059000000,0,0,9.8100,0,0.5,0,0,0,0,-0.039260,0,0.999229,0
4092000000,0,0,9.8100,0,0.5,0,0,0,0,-0.052336,0,0.998630,0
4125000000,0,0,9.8100,0,0.5,0,0,0,0,-0.065403,0,0.997859,0
4158000000,0,0,9.8100,0,0.5,0,0,0,0,-0.078459,0,0.996917,0
4191000000,0,0,9.8100,0,0.5,0,0,0,0,-0.091502,0,0.995805,0
4224000000,0,0,9.8100,0,0.5,0,0,0,0,-0.104528,0,0.994522,0
4257000000,0,0,9.8100,0,0.5,0,0,0,0,-0.117537,0,0.993068,0
4290000000,0,0,9.8100,0,0.5,0,0,0,0,-0.130526,0,0.991445,0
4323000000,0,0,9.8100,0,0.5,0,0,0,0,-0.143493,0,0.989651,0
4356000000,0,0,9.8100,0,0.5,0,0,0,0,-0.156434,0,0.987688,0
4389000000,0,0,9.8100,0,0.5,0,0,0,0,-0.169350,0,0.985556,0
4422000000,0,0,9.8100,0,0.5,0,0,0,0,-0.182236,0,0.983255,0
4455000000,0,0,9.8100,0,0.5,0,0,0,0,-0.195090,0,0.980785,0
4488000000,0,0,9.8100,0,0.5,0,0,0,0,-0.207912,0,0.978148,0
4521000000,0,0,9.8100,0,0.5,0,0,0,0,-0.220697,0,0.975342,0
4554000000,0,0,9.8100,0,0.5,0,0,0,0,-0.233445,0,0.972370,0
4587000000,0,0,9.8100,0,0.5,0,0,0,0,-0.246153,0,0.969231,0
4620000000,0,0,9.8100,0,0.5,0,0,0,0,-0.258819,0,0.965926,0
4653000000,0,0,9.8100,0,0.5,0,0,0,0,-0.271440,0,0.962455,0
4686000000,0,0,9.8100,0,0.5,0,0,0,0,-0.284015,0,0.958820,0
4719000000,0,0,9.8100,0,0.5,0,0,0,0,-0.296542,0,0.955020,0
4752000000,0,0,9.8100,0,0.5,0,0,0,0,-0.309017,0,0.951057,0
4785000000,0,0,9.8100,0,0.5,0,0,0,0,-0.321439,0,0.946930,0
4818000000,0,0,9.8100,0,0.5,0,0,0,0,-0.333807,0,0.942641,0
4851000000,0,0,9.8100,0,0.5,0,0,0,0,-0.346117,0,0.938191,0
4884000000,0,0,9.8100,0,0.5,0,0,0,0,-0.358368,0,0.933580,0
4917000000,0,0,9.8100,0,0.5,0,0,0,0,-0.370557,0,0.928810,0
4950000000,0,0,9.8100,0,0.5,0,0,0,0,-0.382683,0,0.923880,0
4983000000,0,0,9.8100,0,0.5,0,0,0,0,-0.394744,0,0.918791,0
5016000000,0,0,9.8100,0,0.5,0,0,0,0,-0.406737,0,0.913545,0
5049000000,0,0,9.8100,0,0.5,0,0,0,0,-0.418660,0,0.908143,0
5082000000,0,0,9.8100,0,0.5,0,0,0,0,-0.430511,0,0.902585,0
5115000000,0,0,9.8100,0,0.5,0,0,0,0,-0.442289,0,0.896873,0
5148000000,0,0,9.8100,0,0.5,0,0,0,0,-0.453990,0,0.891007,0
5181000000,0,0,9.8100,0,0.5,0,0,0,0,-0.465615,0,0.884988,0
5214000000,0,0,9.8100,0,0.5,0,0,0,0,-0.477159,0,0.878817,0
5247000000,0,0,9.8100,0,0.5,0,0,0,0,-0.488621,0,0.872496,0
5280000000,0,0,9.8100,0,0.5,0,0,0,0,-0.500000,0,0.866025,0
5313000000,0,0,9.8100,0,0.5,0,0,0,0,-0.511293,0,0.859406,0
5346000000,0,0,9.8100,0,0.5,0,0,0,0,-0.522499,0,0.852640,0
5379000000,0,0,9.8100,0,0.5,0,0,0,0,-0.533615,0,0.845728,0
5412000000,0,0,9.8100,0,0.5,0,0,0,0,-0.544639,0,0.838671,0
5445000000,0,0,9.8100,0,0.5,0,0,0,0,-0.555570,0,0.831470,0
5478000000,0,0,9.8100,0,0.5,0,0,0,0,-0.566406,0,0.824126,0
5511000000,0,0,9.8100,0,0.5,0,0,0,0,-0.577145,0,0.816642,0
5544000000,0,0,9.8100,0,0.5,0,0,0,0,-0.587785,0,0.809017,0
5577000000,0,0,9.8100,0,0.5,0,0,0,0,-0.598325,0,0.801254,0
5610000000,0,0,9.8100,0,0.5,0,0,0,0,-0.608761,0,0.793353,0
5643000000,0,0,9.8100,0,0.5,0,0,0,0,-0.619094,0,0.785317,0
5676000000,0,0,9.8100,0,0.5,0,0,0,0,-0.629320,0,0.777146,0
5709000000,0,0,9.8100,0,0.5,0,0,0,0,-0.639439,0,0.768842,0
5742000000,0,0,9.8100,0,0.5,0,0,0,0,-0.649448,0,0.760406,0
5775000000,0,0,9.8100,0,0.5,0,0,0,0,-0.659346,0,0.751840,0
5808000000,0,0,9.8100,0,0.5,0,0,0,0,-0.669131,0,0.743145,0
5841000000,0,0,9.8100,0,0.5,0,0,0,0,-0.678801,0,0.734323,0
5874000000,0,0,9.8100,0,0.5,0,0,0,0,-0.688355,0,0.725374,0
5907000000,0,0,9.8100,0,0.5,0,0,0,0,-0.697790,0,0.716302,0
5940000000,0,0,9.8100,0,0.5,0,0,0,0,-0.707107,0,0.707107,0
5973000000,0,0,9.8100,0,0.5,0,0,0,0,-0.716302,0,0.697790,0
6006000000,0,0,9.8100,0,0.5,0,0,0,0,-0.725374,0,0.688355,0
6039000000,0,0,9.8100,0,0.5,0,0,0,0,-0.734323,0,0.678801,0
6072000000,0,0,9.8100,0,0.5,0,0,0,0,-0.743145,0,0.669131,0
6105000000,0,0,9.8100,0,0.5,0,0,0,0,-0.751840,0,0.659346,0
6138000000,0,0,9.8100,0,0.5,0,0,0,0,-0.760406,0,0.649448,0
6171000000,0,0,9.8100,0,0.5,0,0,0,0,-0.768842,0,0.639439,0
6204000000,0,0,9.8100,0,0.5,0,0,0,0,-0.777146,0,0.629320,0
6237000000,0,0,9.8100,0,0.5,0,0,0,0,-0.785317,0,0.619094,0
6270000000,0,0,9.8100,0,0.5,0,0,0,0,-0.793353,0,0.608761,0
6303000000,0,0,9.8100,0,0.5,0,0,0,0,-0.801254,0,0.598325,0
6336000000,0,0,9.8100,0,0.5,0,0,0,0,-0.809017,0,0.587785,0
6369000000,0,0,9.8100,0,0.5,0,0,0,0,-0.816642,0,0.577145,0
6402000000,0,0,9.8100,0,0.5,0,0,0,0,-0.824126,0,0.566406,0
6435000000,0,0,9.8100,0,0.5,0,0,0,0,-0.831470,0,0.555570,0
6468000000,0,0,9.8100,0,0.5,0,0,0,0,-0.838671,0,0.544639,0
6501000000,0,0,9.8100,0,0.5,0,0,0,0,-0.845728,0,0.533615,0
6534000000,0,0,9.8100,0,0.5,0,0,0,0,-0.852640,0,0.522499,0
6567000000,0,0,9.8100,0,0.5,0,0,0,0,-0.859406,0,0.511293,0
6600000000,0,0,9.8100,0,0.5,0,0,0,0,-0.866025,0,0.500000,0
6633000000,0,0,9.8100,0,0.5,0,0,0,0,-0.872496,0,0.488621,0
6666000000,0,0,9.8100,0,0.5,0,0,0,0,-0.878817,0,0.477159,0
6699000000,0,0,9.8100,0,0.5,0,0,0,0,-0.884988,0,0.465615,0
6732000000,0,0,9.8100,0,0.5,0,0,0,0,-0.891007,0,0.453990,0
6765000000,0,0,9.8100,0,0.5,0,0,0,0,-0.896873,0,0.442289,0
6798000000,0,0,9.8100,0,0.5,0,0,0,0,-0.902585,0,0.430511,0
6831000000,0,0,9.8100,0,0.5,0,0,0,0,-0.908143,0,0.418660,0
6864000000,0,0,9.8100,0,0.5,0,0,0,0,-0.913545,0,0.406737,0
6897000000,0,0,9.8100,0,0.5,0,0,0,0,-0.918791,0,0.394744,0
6930000000,0,0,9.8100,0,0.5,0,0,0,0,-0.923880,0,0.382683,0
6963000000,0,0,9.8100,0,0.5,0,0,0,0,-0.928810,0,0.370557,0
6996000000,0,0,9.8100,0,0.5,0,0,0,0,-0.933580,0,0.358368,0
7029000000,0,0,9.8100,0,0.5,0,0,0,0,-0.938191,0,0.346117,0
7062000000,0,0,9.8100,0,0.5,0,0,0,0,-0.942641,0,0.333807,0
7095000000,0,0,9.8100,0,0.5,0,0,0,0,-0.946930,0,0.321439,0
7128000000,0,0,9.8100,0,0.5,0,0,0,0,-0.951057,0,0.309017,0
7161000000,0,0,9.8100,0,0.5,0,0,0,0,-0.955020,0,0.296542,0
7194000000,0,0,9.8100,0,0.5,0,0,0,0,-0.958820,0,0.284015,0
7227000000,0,0,9.8100,0,0.5,0,0,0,0,-0.962455,0,0.271440,0
7260000000,0,0,9.8100,0,0.5,0,0,0,0,-0.965926,0,0.258819,0
7293000000,0,0,9.8100,0,0.5,0,0,0,0,-0.969231,0,0.246153,0
7326000000,0,0,9.8100,0,0.5,0,0,0,0,-0.972370,0,0.233445,0
7359000000,0,0,9.8100,0,0.5,0,0,0,0,-0.975342,0,0.220697,0
7392000000,0,0,9.8100,0,0.5,0,0,0,0,-0.978148,0,0.207912,0
7425000000,0,0,9.8100,0,0.5,0,0,0,0,-0.980785,0,0.195090,0
7458000000,0,0,9.8100,0,0.5,0,0,0,0,-0.983255,0,0.182236,0
7491000000,0,0,9.8100,0,0.5,0,0,0,0,-0.985556,0,0.169350,0
7524000000,0,0,9.8100,0,0.5,0,0,0,0,-0.987688,0,0.156434,0
7557000000,0,0,9.8100,0,0.5,0,0,0,0,-0.989651,0,0.143493,0
7590000000,0,0,9.8100,0,0.5,0,0,0,0,-0.991445,0,0.130526,0
7623000000,0,0,9.8100,0,0.5,0,0,0,0,-0.993068,0,0.117537,0
7656000000,0,0,9.8100,0,0.5,0,0,0,0,-0.994522,0,0.104528,0
7689000000,0,0,9.8100,0,0.5,0,0,0,0,-0.995805,0,0.091502,0
7722000000,0,0,9.8100,0,0.5,0,0,0,0,-0.996917,0,0.078459,0
7755000000,0,0,9.8100,0,0.5,0,0,0,0,-0.997859,0,0.065403,0
7788000000,0,0,9.8100,0,0.5,0,0,0,0,-0.998630,0,0.052336,0
7821000000,0,0,9.8100,0,0.5,0,0,0,0,-0.999229,0,0.039260,0
7854000000,0,0,9.8100,0,0.5,0,0,0,0,-0.999657,0,0.026177,0
7887000000,0,0,9.8100,0,0.5,0,0,0,0,-0.999914,0,0.013090,0
